condsFile,flankerDirc,targetDirc,corrAns,displays,blocks.thisRepN,blocks.thisTrialN,blocks.thisN,blocks.thisIndex,trials.thisRepN,trials.thisTrialN,trials.thisN,trials.thisIndex,kb.keys,kb.corr,kb.rt,Subject ID,group,age,gender,date,expName,
block1_params.xlsx,0,0,z,congruent,0,0,0,0,0,0,0,0,NaN,0,NaN,192D1,A,25,M,Feb_27_1504,Flanker Task,
block1_params.xlsx,0,0,z,congruent,0,0,0,0,0,1,1,4,z,1,0.6869752700440586,192D1,A,25,M,Feb_27_1504,Flanker Task,
block1_params.xlsx,1,0,z,incongruent,0,0,0,0,0,2,2,10,m,0,1.590539717930369,192D1,A,25,M,Feb_27_1504,Flanker Task,
block1_params.xlsx,1,1,m,congruent,0,0,0,0,0,3,3,3,m,1,0.06556110200472176,192D1,A,25,M,Feb_27_1504,Flanker Task,
block1_params.xlsx,1,1,m,congruent,0,0,0,0,0,4,4,11,m,1,1.6588296999689192,192D1,A,25,M,Feb_27_1504,Flanker Task,
block1_params.xlsx,1,1,m,congruent,0,0,0,0,0,5,5,7,m,1,0.6991870299680158,192D1,A,25,M,Feb_27_1504,Flanker Task,
block1_params.xlsx,0,0,z,congruent,0,0,0,0,0,6,6,8,z,1,0.4425977149512619,192D1,A,25,M,Feb_27_1504,Flanker Task,
block1_params.xlsx,0,1,m,incongruent,0,0,0,0,0,7,7,5,z,0,0.14971863199025393,192D1,A,25,M,Feb_27_1504,Flanker Task,
block1_params.xlsx,1,0,z,incongruent,0,0,0,0,0,8,8,6,z,1,0.49237837502732873,192D1,A,25,M,Feb_27_1504,Flanker Task,
block1_params.xlsx,1,0,z,incongruent,0,0,0,0,0,9,9,2,m,0,0.13185575988609344,192D1,A,25,M,Feb_27_1504,Flanker Task,
block1_params.xlsx,0,1,m,incongruent,0,0,0,0,0,10,10,9,m,1,0.39437299291603267,192D1,A,25,M,Feb_27_1504,Flanker Task,
block1_params.xlsx,0,1,m,incongruent,0,0,0,0,0,11,11,1,z,0,0.366105072083883,192D1,A,25,M,Feb_27_1504,Flanker Task,
block3_params.xlsx,0,1,m,incongruent,0,1,1,2,0,0,0,9,m,1,0.33126388397067785,192D1,A,25,M,Feb_27_1504,Flanker Task,
block3_params.xlsx,1,1,m,congruent,0,1,1,2,0,1,1,11,m,1,0.1295778639614582,192D1,A,25,M,Feb_27_1504,Flanker Task,
block3_params.xlsx,0,1,m,incongruent,0,1,1,2,0,2,2,1,m,1,0.3360062959836796,192D1,A,25,M,Feb_27_1504,Flanker Task,
block3_params.xlsx,0,0,z,congruent,0,1,1,2,0,3,3,8,z,1,0.35021637799218297,192D1,A,25,M,Feb_27_1504,Flanker Task,
block3_params.xlsx,1,0,z,incongruent,0,1,1,2,0,4,4,6,z,1,0.30859193194191903,192D1,A,25,M,Feb_27_1504,Flanker Task,
block3_params.xlsx,0,0,z,congruent,0,1,1,2,0,5,5,4,m,0,0.46116826101206243,192D1,A,25,M,Feb_27_1504,Flanker Task,
block3_params.xlsx,1,1,m,congruent,0,1,1,2,0,6,6,3,m,1,0.31018945993855596,192D1,A,25,M,Feb_27_1504,Flanker Task,
block3_params.xlsx,1,0,z,incongruent,0,1,1,2,0,7,7,2,m,0,0.1179485300090164,192D1,A,25,M,Feb_27_1504,Flanker Task,
block3_params.xlsx,0,0,z,congruent,0,1,1,2,0,8,8,0,z,1,0.332302438095212,192D1,A,25,M,Feb_27_1504,Flanker Task,
block3_params.xlsx,1,0,z,incongruent,0,1,1,2,0,9,9,10,z,1,0.282744046067819,192D1,A,25,M,Feb_27_1504,Flanker Task,
block3_params.xlsx,1,1,m,congruent,0,1,1,2,0,10,10,7,m,1,0.3959156209602952,192D1,A,25,M,Feb_27_1504,Flanker Task,
block3_params.xlsx,0,1,m,incongruent,0,1,1,2,0,11,11,5,m,1,0.3036225000396371,192D1,A,25,M,Feb_27_1504,Flanker Task,
block2_params.xlsx,1,1,m,congruent,0,2,2,1,0,0,0,11,z,0,0.287376890075393,192D1,A,25,M,Feb_27_1504,Flanker Task,
block2_params.xlsx,1,0,z,incongruent,0,2,2,1,0,1,1,10,z,1,0.40707914798986167,192D1,A,25,M,Feb_27_1504,Flanker Task,
block2_params.xlsx,0,0,z,congruent,0,2,2,1,0,2,2,0,z,1,0.3466095499461517,192D1,A,25,M,Feb_27_1504,Flanker Task,
block2_params.xlsx,1,0,z,incongruent,0,2,2,1,0,3,3,2,m,0,0.24176269897725433,192D1,A,25,M,Feb_27_1504,Flanker Task,
block2_params.xlsx,0,1,m,incongruent,0,2,2,1,0,4,4,9,z,0,-0.0028987620025873184,192D1,A,25,M,Feb_27_1504,Flanker Task,
block2_params.xlsx,1,0,z,incongruent,0,2,2,1,0,5,5,6,m,0,0.272779457969591,192D1,A,25,M,Feb_27_1504,Flanker Task,
block2_params.xlsx,0,0,z,congruent,0,2,2,1,0,6,6,4,z,1,0.049871817929670215,192D1,A,25,M,Feb_27_1504,Flanker Task,
block2_params.xlsx,0,0,z,congruent,0,2,2,1,0,7,7,8,z,1,0.28518345998600125,192D1,A,25,M,Feb_27_1504,Flanker Task,
block2_params.xlsx,1,1,m,congruent,0,2,2,1,0,8,8,3,m,1,0.244111115927808,192D1,A,25,M,Feb_27_1504,Flanker Task,
block2_params.xlsx,1,1,m,congruent,0,2,2,1,0,9,9,7,m,1,0.2872044480172917,192D1,A,25,M,Feb_27_1504,Flanker Task,
block2_params.xlsx,0,1,m,incongruent,0,2,2,1,0,10,10,1,z,0,0.0869529020274058,192D1,A,25,M,Feb_27_1504,Flanker Task,
block2_params.xlsx,0,1,m,incongruent,0,2,2,1,0,11,11,5,z,0,0.2788965980289504,192D1,A,25,M,Feb_27_1504,Flanker Task,
