Subject ID,True_block,Trial_type,Group,Accuracy,Reaction_time
0B9D1,1,incongruent,A,0,0.180338147
0B9D1,1,congruent,A,0,NaN
0B9D1,1,incongruent,A,0,NaN
0B9D1,1,incongruent,A,1,0.495680385
0B9D1,1,congruent,A,1,0.331335968
0B9D1,1,incongruent,A,1,0.642446104
0B9D1,1,incongruent,A,1,0.472183176
0B9D1,1,congruent,A,1,0.404060256
0B9D1,1,incongruent,A,1,0.514248483
0B9D1,1,congruent,A,1,0.378584667
0B9D1,1,congruent,A,1,0.383927403
0B9D1,1,congruent,A,1,0.334232075
0B9D1,2,incongruent,A,1,0.34905598
0B9D1,2,congruent,A,1,0.385577966
0B9D1,2,incongruent,A,1,0.301147102
0B9D1,2,congruent,A,1,0.474852324
0B9D1,2,incongruent,A,1,0.330449992
0B9D1,2,congruent,A,1,0.338229841
0B9D1,2,incongruent,A,1,0.478492099
0B9D1,2,congruent,A,1,0.496124538
0B9D1,2,congruent,A,1,0.350728032
0B9D1,2,incongruent,A,1,0.314078887
0B9D1,2,incongruent,A,1,0.289567214
0B9D1,2,congruent,A,1,0.389508104
0B9D1,3,congruent,A,1,0.515233652
0B9D1,3,congruent,A,1,0.312529622
0B9D1,3,incongruent,A,1,0.433316157
0B9D1,3,incongruent,A,1,0.30607802
0B9D1,3,incongruent,A,0,0.28330764
0B9D1,3,congruent,A,1,0.3540297
0B9D1,3,incongruent,A,1,0.351559323
0B9D1,3,congruent,A,1,0.313652568
0B9D1,3,congruent,A,1,0.297345816
0B9D1,3,incongruent,A,1,0.314665248
0B9D1,3,congruent,A,1,0.298294093
0B9D1,3,incongruent,A,1,0.316931942
1BCD6,1,incongruent,A,0,1.434462707
1BCD6,1,congruent,A,1,1.313251002
1BCD6,1,congruent,A,1,0.491365983
1BCD6,1,incongruent,A,1,0.452593547
1BCD6,1,congruent,A,1,0.378467801
1BCD6,1,congruent,A,1,0.407932596
1BCD6,1,incongruent,A,1,0.364122182
1BCD6,1,incongruent,A,1,0.454101906
1BCD6,1,congruent,A,1,0.364974325
1BCD6,1,incongruent,A,1,0.411732533
1BCD6,1,congruent,A,1,0.422895126
1BCD6,1,incongruent,A,1,0.378106876
1BCD6,2,incongruent,A,1,0.486779576
1BCD6,2,congruent,A,1,0.381069997
1BCD6,2,congruent,A,1,0.329002118
1BCD6,2,incongruent,A,1,0.384154548
1BCD6,2,congruent,A,1,0.368467815
1BCD6,2,congruent,A,1,0.345872711
1BCD6,2,incongruent,A,1,0.529552225
1BCD6,2,congruent,A,1,0.387763818
1BCD6,2,incongruent,A,1,0.44691345
1BCD6,2,incongruent,A,1,0.309502267
1BCD6,2,congruent,A,1,0.366299788
1BCD6,2,incongruent,A,1,0.438758816
1BCD6,3,congruent,A,1,0.294755517
1BCD6,3,incongruent,A,1,0.376494392
1BCD6,3,incongruent,A,1,0.361844203
1BCD6,3,incongruent,A,1,0.374989359
1BCD6,3,incongruent,A,1,0.39649566
1BCD6,3,congruent,A,1,0.374993687
1BCD6,3,congruent,A,1,0.33997372
1BCD6,3,congruent,A,1,0.43919355
1BCD6,3,congruent,A,1,0.306343442
1BCD6,3,incongruent,A,1,0.32894881
1BCD6,3,incongruent,A,1,0.330851472
1BCD6,3,congruent,A,1,0.323888092
1B2CD,1,congruent,A,1,0.047535658
1B2CD,1,congruent,A,0,NaN
1B2CD,1,congruent,A,1,0.031160498
1B2CD,1,incongruent,A,1,2.041413543
1B2CD,1,congruent,A,0,0.17165075
1B2CD,1,incongruent,A,0,0.08153134
1B2CD,1,incongruent,A,1,0.355325244
1B2CD,1,incongruent,A,0,0.024773511
1B2CD,1,incongruent,A,0,0.058712034
1B2CD,1,incongruent,A,1,0.47961947
1B2CD,1,congruent,A,1,0.41519221
1B2CD,1,congruent,A,1,0.323066382
1B2CD,2,incongruent,A,1,0.373090588
1B2CD,2,congruent,A,1,0.445832734
1B2CD,2,congruent,A,1,0.272092571
1B2CD,2,incongruent,A,1,0.356450786
1B2CD,2,incongruent,A,1,0.34550169
1B2CD,2,incongruent,A,1,0.319705972
1B2CD,2,incongruent,A,1,0.31019222
1B2CD,2,congruent,A,1,0.317782964
1B2CD,2,congruent,A,1,0.300901282
1B2CD,2,congruent,A,0,0.369403904
1B2CD,2,congruent,A,1,0.303375832
1B2CD,2,incongruent,A,1,0.311728703
1B2CD,3,incongruent,A,1,0.343426259
1B2CD,3,congruent,A,1,0.35767134
1B2CD,3,incongruent,A,1,0.418710822
1B2CD,3,incongruent,A,1,0.389095196
1B2CD,3,congruent,A,1,0.334560271
1B2CD,3,congruent,A,1,0.349568972
1B2CD,3,incongruent,A,1,0.376108352
1B2CD,3,congruent,A,1,0.425056116
1B2CD,3,congruent,A,1,0.40374299
1B2CD,3,incongruent,A,1,0.405279871
1B2CD,3,congruent,A,1,0.38481478
1B2CD,3,incongruent,A,1,0.439100746
0485F,1,incongruent,A,0,0.093174607
0485F,1,congruent,A,1,0.109141202
0485F,1,incongruent,A,1,0.485455877
0485F,1,incongruent,A,0,1.317083051
0485F,1,congruent,A,0,NaN
0485F,1,congruent,A,1,0.00410298
0485F,1,incongruent,A,0,1.000047686
0485F,1,congruent,A,1,1.139377437
0485F,1,incongruent,A,1,0.441093668
0485F,1,incongruent,A,1,0.404114366
0485F,1,congruent,A,1,0.40149006
0485F,1,congruent,A,1,0.427016588
0485F,2,congruent,A,1,0.326432236
0485F,2,congruent,A,1,0.40316861
0485F,2,congruent,A,1,0.34302227
0485F,2,incongruent,A,1,0.535442124
0485F,2,incongruent,A,1,0.371549704
0485F,2,incongruent,A,1,0.447976784
0485F,2,congruent,A,1,0.402551162
0485F,2,incongruent,A,1,0.472346854
0485F,2,congruent,A,1,0.427901848
0485F,2,incongruent,A,1,0.441738436
0485F,2,incongruent,A,1,0.440552064
0485F,2,congruent,A,1,0.486066379
0485F,3,incongruent,A,1,0.397234984
0485F,3,congruent,A,1,0.352586172
0485F,3,incongruent,A,1,0.398090983
0485F,3,incongruent,A,1,0.360792589
0485F,3,incongruent,A,1,0.397736786
0485F,3,incongruent,A,1,0.394257988
0485F,3,congruent,A,1,0.401157872
0485F,3,congruent,A,1,0.44103251
0485F,3,congruent,A,1,0.387999782
0485F,3,congruent,A,1,0.491520412
0485F,3,incongruent,A,1,0.410290076
0485F,3,congruent,A,1,0.356381032
192D1,1,congruent,A,0,NaN
192D1,1,congruent,A,1,0.68697527
192D1,1,incongruent,A,0,1.590539718
192D1,1,congruent,A,1,0.065561102
192D1,1,congruent,A,1,1.6588297
192D1,1,congruent,A,1,0.69918703
192D1,1,congruent,A,1,0.442597715
192D1,1,incongruent,A,0,0.149718632
192D1,1,incongruent,A,1,0.492378375
192D1,1,incongruent,A,0,0.13185576
192D1,1,incongruent,A,1,0.394372993
192D1,1,incongruent,A,0,0.366105072
192D1,2,incongruent,A,1,0.331263884
192D1,2,congruent,A,1,0.129577864
192D1,2,incongruent,A,1,0.336006296
192D1,2,congruent,A,1,0.350216378
192D1,2,incongruent,A,1,0.308591932
192D1,2,congruent,A,0,0.461168261
192D1,2,congruent,A,1,0.31018946
192D1,2,incongruent,A,0,0.11794853
192D1,2,congruent,A,1,0.332302438
192D1,2,incongruent,A,1,0.282744046
192D1,2,congruent,A,1,0.395915621
192D1,2,incongruent,A,1,0.3036225
192D1,3,congruent,A,0,0.28737689
192D1,3,incongruent,A,1,0.407079148
192D1,3,congruent,A,1,0.34660955
192D1,3,incongruent,A,0,0.241762699
192D1,3,incongruent,A,0,-0.002898762
192D1,3,incongruent,A,0,0.272779458
192D1,3,congruent,A,1,0.049871818
192D1,3,congruent,A,1,0.28518346
192D1,3,congruent,A,1,0.244111116
192D1,3,congruent,A,1,0.287204448
192D1,3,incongruent,A,0,0.086952902
192D1,3,incongruent,A,0,0.278896598
0E05F,1,congruent,A,1,0.655746351
0E05F,1,incongruent,A,0,NaN
0E05F,1,incongruent,A,0,NaN
0E05F,1,incongruent,A,0,NaN
0E05F,1,congruent,A,0,NaN
0E05F,1,incongruent,A,0,NaN
0E05F,1,incongruent,A,0,0.589529866
0E05F,1,congruent,A,1,1.649264097
0E05F,1,congruent,A,0,NaN
0E05F,1,congruent,A,0,NaN
0E05F,1,congruent,A,0,NaN
0E05F,1,incongruent,A,0,NaN
0E05F,2,congruent,A,0,NaN
0E05F,2,incongruent,A,0,NaN
0E05F,2,congruent,A,0,NaN
0E05F,2,congruent,A,0,NaN
0E05F,2,incongruent,A,1,0.599669918
0E05F,2,incongruent,A,1,0.355290782
0E05F,2,congruent,A,1,0.46059498
0E05F,2,incongruent,A,1,0.38356462
0E05F,2,incongruent,A,1,0.471406858
0E05F,2,congruent,A,1,0.45436383
0E05F,2,incongruent,A,1,0.418520662
0E05F,2,congruent,A,1,0.395111241
0E05F,3,congruent,A,1,0.440600854
0E05F,3,incongruent,A,1,0.449794366
0E05F,3,incongruent,A,1,0.32407853
0E05F,3,congruent,A,1,0.418544116
0E05F,3,incongruent,A,1,0.324966917
0E05F,3,incongruent,A,1,0.352537745
0E05F,3,incongruent,A,1,0.4030013
0E05F,3,incongruent,A,1,0.379120766
0E05F,3,congruent,A,1,0.41622296
0E05F,3,congruent,A,1,0.4219164
0E05F,3,congruent,A,1,0.366357809
0E05F,3,congruent,A,1,0.406414052
06AA6,1,congruent,A,1,1.810263217
06AA6,1,incongruent,A,0,0.168661082
06AA6,1,incongruent,A,1,0.609433866
06AA6,1,congruent,A,1,0.503090224
06AA6,1,incongruent,A,1,0.794261689
06AA6,1,congruent,A,1,0.646333812
06AA6,1,incongruent,A,1,0.717529806
06AA6,1,congruent,A,1,0.510682062
06AA6,1,incongruent,A,1,0.721953028
06AA6,1,congruent,A,1,0.626661668
06AA6,1,congruent,A,1,0.641850074
06AA6,1,incongruent,A,1,0.662552875
06AA6,2,incongruent,A,1,0.70356446
06AA6,2,congruent,A,1,0.659791798
06AA6,2,congruent,A,1,0.636568616
06AA6,2,incongruent,A,1,0.717615248
06AA6,2,incongruent,A,1,0.922705106
06AA6,2,incongruent,A,1,1.172616092
06AA6,2,congruent,A,1,0.712589086
06AA6,2,congruent,A,1,0.638833508
06AA6,2,incongruent,A,1,0.749513082
06AA6,2,incongruent,A,1,0.763651165
06AA6,2,congruent,A,1,0.572128238
06AA6,2,congruent,A,1,0.523830495
06AA6,3,incongruent,A,1,0.770887608
06AA6,3,incongruent,A,1,0.57209789
06AA6,3,incongruent,A,1,0.574100774
06AA6,3,congruent,A,1,0.387777874
06AA6,3,congruent,A,1,0.552886031
06AA6,3,incongruent,A,1,0.464495264
06AA6,3,incongruent,A,1,0.60804431
06AA6,3,congruent,A,1,0.528600336
06AA6,3,incongruent,A,1,0.415920962
06AA6,3,congruent,A,1,0.544593261
06AA6,3,congruent,A,1,0.515688679
06AA6,3,congruent,A,1,0.5346468
098A8,1,incongruent,A,0,1.053198188
098A8,1,congruent,A,1,0.854907848
098A8,1,congruent,A,1,0.51887191
098A8,1,congruent,A,1,0.429118573
098A8,1,congruent,A,1,0.551163115
098A8,1,incongruent,A,1,0.456992534
098A8,1,congruent,A,1,0.579827617
098A8,1,incongruent,A,1,0.539743297
098A8,1,incongruent,A,1,0.549565378
098A8,1,congruent,A,1,0.647517477
098A8,1,incongruent,A,1,0.487001563
098A8,1,incongruent,A,1,0.43863889
098A8,2,incongruent,A,1,0.491333827
098A8,2,congruent,A,1,0.468046307
098A8,2,congruent,A,1,0.46683258
098A8,2,incongruent,A,1,0.403172251
098A8,2,incongruent,A,1,0.507790912
098A8,2,congruent,A,1,0.441135095
098A8,2,incongruent,A,1,0.4604156
098A8,2,congruent,A,1,0.470878122
098A8,2,incongruent,A,1,0.538629929
098A8,2,congruent,A,1,0.622408857
098A8,2,incongruent,A,1,0.408515578
098A8,2,congruent,A,1,0.395944051
098A8,3,incongruent,A,1,0.662531133
098A8,3,congruent,A,1,0.557176735
098A8,3,congruent,A,1,0.407915033
098A8,3,congruent,A,1,0.613124895
098A8,3,congruent,A,1,0.456480387
098A8,3,incongruent,A,1,0.628439175
098A8,3,incongruent,A,1,0.633529677
098A8,3,congruent,A,1,0.464542895
098A8,3,incongruent,A,1,0.443885281
098A8,3,incongruent,A,1,0.393829651
098A8,3,incongruent,A,1,0.556278475
098A8,3,congruent,A,1,0.458009223
00F3F,1,incongruent,A,0,0.12294511
00F3F,1,incongruent,A,1,0.5119809
00F3F,1,congruent,A,1,0.267588222
00F3F,1,congruent,A,1,0.312831656
00F3F,1,congruent,A,1,0.350180965
00F3F,1,incongruent,A,1,0.309794202
00F3F,1,incongruent,A,1,0.369516425
00F3F,1,incongruent,A,1,0.366701053
00F3F,1,incongruent,A,1,0.40031898
00F3F,1,congruent,A,1,0.377295553
00F3F,1,congruent,A,1,0.388276955
00F3F,1,congruent,A,1,0.337550118
00F3F,2,incongruent,A,1,0.523775678
00F3F,2,incongruent,A,1,0.55093304
00F3F,2,incongruent,A,1,0.363781395
00F3F,2,congruent,A,1,0.414581774
00F3F,2,incongruent,A,1,0.33378866
00F3F,2,incongruent,A,1,0.35488823
00F3F,2,congruent,A,1,0.307816329
00F3F,2,congruent,A,1,0.340083724
00F3F,2,congruent,A,1,0.259321417
00F3F,2,congruent,A,1,0.294235023
00F3F,2,incongruent,A,1,0.254669291
00F3F,2,congruent,A,1,0.336581625
00F3F,3,congruent,A,1,0.306868797
00F3F,3,congruent,A,1,0.404089554
00F3F,3,congruent,A,1,0.27558764
00F3F,3,congruent,A,1,0.322512892
00F3F,3,incongruent,A,1,0.288656526
00F3F,3,incongruent,A,1,0.30429649
00F3F,3,incongruent,A,1,0.462512729
00F3F,3,congruent,A,1,0.307304724
00F3F,3,incongruent,A,1,0.31279806
00F3F,3,congruent,A,1,0.327479004
00F3F,3,incongruent,A,1,0.351501694
00F3F,3,incongruent,A,1,0.2836222
107D7,1,incongruent,A,1,0.8694382
107D7,1,congruent,A,1,0.134882344
107D7,1,congruent,A,1,0.35771606
107D7,1,incongruent,A,0,0.271451532
107D7,1,incongruent,A,1,0.313756208
107D7,1,congruent,A,1,0.437547039
107D7,1,congruent,A,1,0.375508041
107D7,1,incongruent,A,1,0.41523566
107D7,1,congruent,A,1,0.354991686
107D7,1,incongruent,A,1,0.364626124
107D7,1,congruent,A,1,0.427246662
107D7,1,incongruent,A,1,0.400843258
107D7,2,congruent,A,1,0.480942412
107D7,2,congruent,A,1,0.298828224
107D7,2,incongruent,A,1,0.398076922
107D7,2,incongruent,A,1,0.26581713
107D7,2,incongruent,A,1,0.383391552
107D7,2,incongruent,A,1,0.268416094
107D7,2,incongruent,A,1,0.29350592
107D7,2,congruent,A,1,0.469614582
107D7,2,congruent,A,1,0.444931954
107D7,2,congruent,A,1,0.321931874
107D7,2,incongruent,A,1,0.360505784
107D7,2,congruent,A,1,0.386050778
107D7,3,incongruent,A,1,0.28590081
107D7,3,incongruent,A,1,0.416635908
107D7,3,congruent,A,1,0.324266581
107D7,3,incongruent,A,1,0.47891134
107D7,3,congruent,A,1,0.376546742
107D7,3,incongruent,A,1,0.294261796
107D7,3,incongruent,A,1,0.427352514
107D7,3,congruent,A,1,0.374363374
107D7,3,incongruent,A,1,0.352060532
107D7,3,congruent,A,1,0.465924294
107D7,3,congruent,A,1,0.26660653
107D7,3,congruent,A,1,0.283872814
1Y821,1,congruent,B,1,0.143820556
1Y821,1,congruent,B,1,0.664155316
1Y821,1,incongruent,B,0,0.164329185
1Y821,1,congruent,B,1,0.17841558
1Y821,1,incongruent,B,0,0.762376855
1Y821,1,incongruent,B,1,0.80682281
1Y821,1,incongruent,B,0,0.309426311
1Y821,1,incongruent,B,1,0.612859862
1Y821,1,congruent,B,1,0.63660264
1Y821,1,incongruent,B,1,0.853428233
1Y821,1,congruent,B,1,0.736868869
1Y821,1,congruent,B,1,0.501462613
1Y821,2,congruent,B,1,0.728297007
1Y821,2,incongruent,B,1,0.360298597
1Y821,2,congruent,B,1,0.703683413
1Y821,2,congruent,B,1,0.428011497
1Y821,2,incongruent,B,1,0.657514866
1Y821,2,incongruent,B,1,0.395178177
1Y821,2,congruent,B,1,0.383010807
1Y821,2,incongruent,B,1,0.53729144
1Y821,2,congruent,B,1,0.455579068
1Y821,2,incongruent,B,1,0.466430195
1Y821,2,congruent,B,1,0.361293284
1Y821,2,incongruent,B,1,0.37480273
1Y821,3,congruent,B,1,0.463252108
1Y821,3,incongruent,B,1,0.506008182
1Y821,3,incongruent,B,1,0.39147589
1Y821,3,incongruent,B,1,0.456860438
1Y821,3,incongruent,B,1,0.540033192
1Y821,3,congruent,B,1,0.456829304
1Y821,3,congruent,B,1,0.478312189
1Y821,3,congruent,B,1,0.617801494
1Y821,3,congruent,B,1,0.390707042
1Y821,3,incongruent,B,1,0.455334822
1Y821,3,congruent,B,1,0.34004138
1Y821,3,incongruent,B,1,0.444550133
17FDC,1,incongruent,B,0,NaN
17FDC,1,incongruent,B,0,NaN
17FDC,1,incongruent,B,1,0.399997132
17FDC,1,congruent,B,1,1.714911615
17FDC,1,incongruent,B,1,0.345289043
17FDC,1,congruent,B,1,0.319515728
17FDC,1,congruent,B,1,0.342203378
17FDC,1,incongruent,B,1,0.38923121
17FDC,1,congruent,B,1,0.329013302
17FDC,1,congruent,B,1,0.366536378
17FDC,1,incongruent,B,1,0.371000826
17FDC,1,congruent,B,1,0.407426811
17FDC,2,congruent,B,1,0.378435722
17FDC,2,congruent,B,1,0.35135643
17FDC,2,incongruent,B,1,0.403744236
17FDC,2,incongruent,B,1,0.366575978
17FDC,2,incongruent,B,1,0.355017628
17FDC,2,congruent,B,1,0.279599792
17FDC,2,incongruent,B,1,0.327775442
17FDC,2,congruent,B,1,0.42973403
17FDC,2,congruent,B,1,0.423166678
17FDC,2,congruent,B,1,0.384934884
17FDC,2,incongruent,B,1,0.395851507
17FDC,2,incongruent,B,1,0.3189349
17FDC,3,incongruent,B,1,0.37258427
17FDC,3,incongruent,B,1,0.377115165
17FDC,3,congruent,B,1,0.422747834
17FDC,3,congruent,B,1,0.416890124
17FDC,3,incongruent,B,1,0.420228874
17FDC,3,congruent,B,1,0.35791319
17FDC,3,incongruent,B,1,0.39435214
17FDC,3,congruent,B,1,0.38125916
17FDC,3,congruent,B,1,0.329726094
17FDC,3,incongruent,B,1,0.415045866
17FDC,3,congruent,B,1,0.42607501
17FDC,3,incongruent,B,1,0.355797315
1A877,1,incongruent,B,0,1.629192901
1A877,1,congruent,B,1,0.664276412
1A877,1,incongruent,B,1,1.383355075
1A877,1,congruent,B,1,0.468529408
1A877,1,congruent,B,1,0.471268136
1A877,1,incongruent,B,1,0.477410837
1A877,1,incongruent,B,1,0.387106409
1A877,1,incongruent,B,0,0.234486837
1A877,1,incongruent,B,1,0.356203167
1A877,1,congruent,B,1,0.372489116
1A877,1,congruent,B,1,0.40664616
1A877,1,congruent,B,1,0.321142753
1A877,2,congruent,B,1,0.328483004
1A877,2,incongruent,B,1,0.491257172
1A877,2,incongruent,B,1,0.5728496
1A877,2,incongruent,B,1,0.308568333
1A877,2,congruent,B,1,0.46720155
1A877,2,congruent,B,1,0.421256532
1A877,2,congruent,B,1,0.324666545
1A877,2,incongruent,B,1,0.497310746
1A877,2,congruent,B,1,0.299405272
1A877,2,incongruent,B,1,0.412202697
1A877,2,incongruent,B,1,0.435353278
1A877,2,congruent,B,1,0.390620482
1A877,3,congruent,B,1,0.756808762
1A877,3,congruent,B,1,0.291589547
1A877,3,incongruent,B,1,0.39944858
1A877,3,congruent,B,1,0.392258589
1A877,3,incongruent,B,1,0.39782777
1A877,3,incongruent,B,1,0.524620139
1A877,3,congruent,B,1,0.337089496
1A877,3,incongruent,B,1,0.486424844
1A877,3,congruent,B,1,0.321338618
1A877,3,incongruent,B,1,0.42986785
1A877,3,congruent,B,1,0.34241896
1A877,3,incongruent,B,1,0.417313887
08BAC,1,congruent,B,1,0.059324228
08BAC,1,congruent,B,1,1.731524238
08BAC,1,incongruent,B,0,0.105326612
08BAC,1,congruent,B,1,0.447320485
08BAC,1,incongruent,B,1,0.362242945
08BAC,1,congruent,B,1,0.36827785
08BAC,1,incongruent,B,1,0.359279707
08BAC,1,incongruent,B,1,0.393309914
08BAC,1,incongruent,B,1,0.470231773
08BAC,1,congruent,B,1,0.491996865
08BAC,1,incongruent,B,1,0.395464148
08BAC,1,congruent,B,1,0.326848545
08BAC,2,incongruent,B,1,0.429556387
08BAC,2,incongruent,B,1,0.42594641
08BAC,2,congruent,B,1,0.431125608
08BAC,2,incongruent,B,1,0.445954631
08BAC,2,congruent,B,1,0.445574291
08BAC,2,incongruent,B,1,0.516223
08BAC,2,incongruent,B,1,0.506605055
08BAC,2,incongruent,B,1,0.42891484
08BAC,2,congruent,B,1,0.539476204
08BAC,2,congruent,B,1,0.37656788
08BAC,2,congruent,B,1,0.369945252
08BAC,2,congruent,B,1,0.473665069
08BAC,3,incongruent,B,1,0.43280374
08BAC,3,incongruent,B,1,0.337176224
08BAC,3,congruent,B,1,0.387776272
08BAC,3,incongruent,B,1,0.419738434
08BAC,3,incongruent,B,1,0.395492975
08BAC,3,congruent,B,1,0.566967675
08BAC,3,incongruent,B,1,0.32304615
08BAC,3,congruent,B,1,0.299728863
08BAC,3,congruent,B,1,0.428191248
08BAC,3,incongruent,B,1,0.369578394
08BAC,3,congruent,B,1,0.447653978
08BAC,3,congruent,B,1,0.38192324
12S91,1,incongruent,B,0,0.108797355
12S91,1,congruent,B,0,0.288393926
12S91,1,congruent,B,0,0.509365315
12S91,1,incongruent,B,0,0.28778113
12S91,1,congruent,B,1,0.455340664
12S91,1,incongruent,B,0,0.340346295
12S91,1,congruent,B,1,0.375310377
12S91,1,incongruent,B,1,0.297444897
12S91,1,congruent,B,1,0.368795402
12S91,1,incongruent,B,1,0.434111108
12S91,1,congruent,B,1,0.496289644
12S91,1,incongruent,B,1,0.390553646
12S91,2,congruent,B,1,0.402271214
12S91,2,congruent,B,1,0.345169714
12S91,2,congruent,B,1,0.364390696
12S91,2,congruent,B,1,0.411572168
12S91,2,incongruent,B,1,0.283343657
12S91,2,incongruent,B,1,0.273399587
12S91,2,congruent,B,1,0.392092205
12S91,2,congruent,B,1,0.373496639
12S91,2,incongruent,B,1,0.299507164
12S91,2,incongruent,B,1,0.329056102
12S91,2,incongruent,B,0,0.250612247
12S91,2,incongruent,B,1,0.25494672
12S91,3,congruent,B,1,0.38244734
12S91,3,incongruent,B,0,0.243431077
12S91,3,congruent,B,1,0.278587397
12S91,3,incongruent,B,1,0.288517218
12S91,3,congruent,B,1,0.374463788
12S91,3,congruent,B,1,0.002218417
12S91,3,congruent,B,1,0.271337407
12S91,3,congruent,B,1,0.295503718
12S91,3,incongruent,B,1,0.28355614
12S91,3,incongruent,B,1,0.25968103
12S91,3,incongruent,B,1,0.323947842
12S91,3,incongruent,B,1,0.225591043
1366C,1,incongruent,B,0,NaN
1366C,1,incongruent,B,0,NaN
1366C,1,congruent,B,1,0.263972567
1366C,1,congruent,B,1,0.335030792
1366C,1,incongruent,B,1,0.374707041
1366C,1,congruent,B,1,0.392999035
1366C,1,incongruent,B,1,0.268971975
1366C,1,incongruent,B,1,0.3120583
1366C,1,congruent,B,1,0.408600138
1366C,1,congruent,B,1,0.373383083
1366C,1,congruent,B,1,0.344636502
1366C,1,incongruent,B,1,0.311711626
1366C,2,congruent,B,1,0.364758233
1366C,2,congruent,B,1,0.349138167
1366C,2,incongruent,B,1,0.320167303
1366C,2,incongruent,B,1,0.276941651
1366C,2,congruent,B,1,0.383182515
1366C,2,congruent,B,1,0.297399374
1366C,2,incongruent,B,1,0.283345919
1366C,2,incongruent,B,1,0.27039316
1366C,2,congruent,B,1,0.358777324
1366C,2,congruent,B,1,0.385857394
1366C,2,incongruent,B,1,0.417117604
1366C,2,incongruent,B,1,0.348306052
1366C,3,congruent,B,1,0.376793566
1366C,3,congruent,B,1,0.382334022
1366C,3,incongruent,B,1,0.33506788
1366C,3,incongruent,B,1,0.323399406
1366C,3,incongruent,B,1,0.28894787
1366C,3,congruent,B,1,0.385777788
1366C,3,congruent,B,1,0.35677109
1366C,3,incongruent,B,1,0.386762405
1366C,3,incongruent,B,1,0.315899152
1366C,3,congruent,B,1,0.351395313
1366C,3,congruent,B,1,0.402602029
1366C,3,incongruent,B,1,0.374561444
160A9,1,incongruent,B,0,NaN
160A9,1,incongruent,B,0,0.59242912
160A9,1,incongruent,B,0,0.010935133
160A9,1,congruent,B,0,NaN
160A9,1,incongruent,B,0,0.448852334
160A9,1,incongruent,B,0,0.059160281
160A9,1,congruent,B,1,1.139716724
160A9,1,congruent,B,1,0.36874108
160A9,1,incongruent,B,0,0.269224502
160A9,1,congruent,B,1,0.405750433
160A9,1,congruent,B,1,0.544539141
160A9,1,congruent,B,1,0.366699651
160A9,2,congruent,B,1,0.058998585
160A9,2,congruent,B,1,0.370410828
160A9,2,congruent,B,1,0.030807044
160A9,2,incongruent,B,1,0.48076752
160A9,2,incongruent,B,0,0.687594522
160A9,2,congruent,B,1,0.071061372
160A9,2,incongruent,B,1,0.392085794
160A9,2,incongruent,B,1,0.171505668
160A9,2,congruent,B,1,0.467504035
160A9,2,congruent,B,1,0.283813362
160A9,2,incongruent,B,1,0.363709746
160A9,2,incongruent,B,0,0.267240694
160A9,3,congruent,B,1,0.171717196
160A9,3,incongruent,B,0,0.335925994
160A9,3,congruent,B,1,0.650611572
160A9,3,incongruent,B,0,0.039383106
160A9,3,incongruent,B,0,0.178473914
160A9,3,incongruent,B,1,0.582890023
160A9,3,congruent,B,1,0.495248492
160A9,3,congruent,B,1,0.374231149
160A9,3,congruent,B,1,0.178472434
160A9,3,incongruent,B,0,0.374950062
160A9,3,congruent,B,1,0.331532971
160A9,3,incongruent,B,1,0.469909448
17D96,1,incongruent,B,1,1.28277437
17D96,1,congruent,B,1,0.695439378
17D96,1,incongruent,B,1,0.440119343
17D96,1,congruent,B,1,0.433694854
17D96,1,congruent,B,1,0.323245512
17D96,1,incongruent,B,1,0.48133968
17D96,1,incongruent,B,1,0.542403306
17D96,1,congruent,B,1,0.387796935
17D96,1,incongruent,B,1,0.573553405
17D96,1,congruent,B,1,0.323743256
17D96,1,congruent,B,1,0.459961124
17D96,1,incongruent,B,1,0.54759819
17D96,2,incongruent,B,1,0.466242782
17D96,2,incongruent,B,1,0.346562074
17D96,2,congruent,B,1,0.376174448
17D96,2,incongruent,B,1,0.345129129
17D96,2,congruent,B,1,0.385451073
17D96,2,congruent,B,1,0.461460412
17D96,2,congruent,B,1,0.334666785
17D96,2,congruent,B,1,0.408192413
17D96,2,incongruent,B,1,0.435931435
17D96,2,incongruent,B,1,0.496134687
17D96,2,congruent,B,1,0.452685795
17D96,2,incongruent,B,1,0.37999537
17D96,3,congruent,B,1,0.34319431
17D96,3,congruent,B,1,0.500020165
17D96,3,incongruent,B,1,0.325434448
17D96,3,congruent,B,1,0.369919469
17D96,3,incongruent,B,1,0.48341517
17D96,3,incongruent,B,1,0.486848807
17D96,3,congruent,B,1,0.373512762
17D96,3,congruent,B,1,0.402177357
17D96,3,incongruent,B,1,0.541217412
17D96,3,congruent,B,1,0.443745818
17D96,3,incongruent,B,1,0.560077278
17D96,3,incongruent,B,1,0.459935156
18C5F,1,congruent,C,0,NaN
18C5F,1,congruent,C,0,NaN
18C5F,1,incongruent,C,0,NaN
18C5F,1,incongruent,C,0,NaN
18C5F,1,congruent,C,1,1.050261206
18C5F,1,incongruent,C,0,0.245825586
18C5F,1,congruent,C,1,NaN
18C5F,1,incongruent,C,0,NaN
18C5F,1,incongruent,C,1,0.180258377
18C5F,1,incongruent,C,1,0.4211946
18C5F,1,congruent,C,1,0.650650288
18C5F,1,congruent,C,1,0.336736009
18C5F,2,congruent,C,1,0.460965454
18C5F,2,incongruent,C,1,0.421221247
18C5F,2,congruent,C,1,0.503602178
18C5F,2,incongruent,C,1,0.531245397
18C5F,2,congruent,C,1,0.389415706
18C5F,2,incongruent,C,1,0.444113087
18C5F,2,congruent,C,1,0.437057288
18C5F,2,congruent,C,1,0.496152708
18C5F,2,incongruent,C,1,0.429471472
18C5F,2,incongruent,C,1,0.496977133
18C5F,2,incongruent,C,1,0.469592499
18C5F,2,congruent,C,0,0.351755885
18C5F,3,congruent,C,1,0.316527088
18C5F,3,incongruent,C,1,0.457813681
18C5F,3,congruent,C,1,0.376911025
18C5F,3,incongruent,C,1,0.57771287
18C5F,3,incongruent,C,1,0.404414618
18C5F,3,congruent,C,1,0.39322247
18C5F,3,incongruent,C,0,0.316528747
18C5F,3,incongruent,C,1,0.448036948
18C5F,3,incongruent,C,1,0.486472824
18C5F,3,congruent,C,1,0.40724849
18C5F,3,congruent,C,1,0.4239616
18C5F,3,congruent,C,1,0.356119228
0FC73,1,incongruent,C,0,NaN
0FC73,1,incongruent,C,1,1.004037641
0FC73,1,incongruent,C,1,0.470008276
0FC73,1,congruent,C,1,0.423132374
0FC73,1,incongruent,C,1,0.354216355
0FC73,1,congruent,C,1,0.346307865
0FC73,1,incongruent,C,1,0.34396858
0FC73,1,congruent,C,1,0.361291542
0FC73,1,congruent,C,1,0.395395388
0FC73,1,congruent,C,1,0.294089044
0FC73,1,congruent,C,1,0.373107463
0FC73,1,incongruent,C,1,0.3491953
0FC73,2,incongruent,C,1,0.404773589
0FC73,2,incongruent,C,1,0.464483436
0FC73,2,congruent,C,1,0.335255034
0FC73,2,incongruent,C,1,0.425890223
0FC73,2,congruent,C,1,0.25849771
0FC73,2,congruent,C,1,0.308208571
0FC73,2,congruent,C,1,0.284401532
0FC73,2,incongruent,C,1,0.396478813
0FC73,2,incongruent,C,1,0.376262347
0FC73,2,congruent,C,1,0.312388474
0FC73,2,congruent,C,1,0.271287647
0FC73,2,incongruent,C,1,0.371231122
0FC73,3,incongruent,C,1,0.307582623
0FC73,3,incongruent,C,1,0.287154569
0FC73,3,incongruent,C,1,0.366365717
0FC73,3,congruent,C,1,0.391277055
0FC73,3,congruent,C,1,0.36911446
0FC73,3,congruent,C,1,0.318250804
0FC73,3,incongruent,C,1,0.284744295
0FC73,3,congruent,C,1,0.291821206
0FC73,3,incongruent,C,1,0.444780006
0FC73,3,congruent,C,1,0.344551094
0FC73,3,congruent,C,1,0.281240214
0FC73,3,incongruent,C,1,0.335501528
134T6,1,incongruent,C,0,0.128163194
134T6,1,incongruent,C,0,0.925990248
134T6,1,congruent,C,1,0.539543038
134T6,1,incongruent,C,1,0.460514528
134T6,1,incongruent,C,1,0.464026372
134T6,1,incongruent,C,1,0.353152048
134T6,1,congruent,C,1,0.513762182
134T6,1,congruent,C,1,0.44997451
134T6,1,incongruent,C,1,0.425160328
134T6,1,congruent,C,1,0.487114418
134T6,1,congruent,C,1,0.408474486
134T6,1,congruent,C,1,0.420259045
134T6,2,incongruent,C,1,0.389715482
134T6,2,congruent,C,1,0.465773532
134T6,2,incongruent,C,1,0.428923304
134T6,2,congruent,C,1,0.406841461
134T6,2,congruent,C,1,0.462390092
134T6,2,congruent,C,1,0.36684236
134T6,2,incongruent,C,1,0.386988104
134T6,2,congruent,C,1,0.594686264
134T6,2,incongruent,C,1,0.576781628
134T6,2,incongruent,C,1,0.491516726
134T6,2,incongruent,C,1,0.386747917
134T6,2,congruent,C,1,0.431552412
134T6,3,congruent,C,1,0.421387452
134T6,3,incongruent,C,1,0.589764036
134T6,3,incongruent,C,1,0.65425216
134T6,3,incongruent,C,1,0.494241046
134T6,3,congruent,C,1,0.373937462
134T6,3,incongruent,C,1,0.440362736
134T6,3,congruent,C,1,0.420364236
134T6,3,congruent,C,1,0.452184656
134T6,3,incongruent,C,1,0.416354442
134T6,3,congruent,C,1,0.546695757
134T6,3,incongruent,C,1,0.476147559
134T6,3,congruent,C,1,0.404290534
063F4,1,incongruent,C,0,0.598468922
063F4,1,congruent,C,1,0.209526966
063F4,1,congruent,C,1,0.652783986
063F4,1,congruent,C,1,0.714274494
063F4,1,incongruent,C,1,0.695826948
063F4,1,incongruent,C,1,0.661646087
063F4,1,congruent,C,1,0.601907389
063F4,1,incongruent,C,1,1.126729204
063F4,1,incongruent,C,1,0.685861926
063F4,1,congruent,C,1,0.678570122
063F4,1,incongruent,C,1,0.797935896
063F4,1,congruent,C,1,0.598449044
063F4,2,incongruent,C,1,0.410431148
063F4,2,congruent,C,1,0.491998156
063F4,2,incongruent,C,1,0.465598546
063F4,2,congruent,C,1,0.629923478
063F4,2,incongruent,C,1,0.616358636
063F4,2,incongruent,C,1,0.723142584
063F4,2,congruent,C,1,0.580320954
063F4,2,incongruent,C,1,0.60204709
063F4,2,congruent,C,1,0.439099606
063F4,2,incongruent,C,1,0.645025242
063F4,2,congruent,C,1,0.507966742
063F4,2,congruent,C,1,0.5425796
063F4,3,congruent,C,1,0.632770804
063F4,3,congruent,C,1,0.506722346
063F4,3,incongruent,C,1,0.394227129
063F4,3,incongruent,C,1,0.560255437
063F4,3,congruent,C,1,0.435376182
063F4,3,incongruent,C,1,0.429682574
063F4,3,incongruent,C,1,0.470461152
063F4,3,congruent,C,1,0.335331774
063F4,3,incongruent,C,1,0.460611401
063F4,3,congruent,C,1,0.47314115
063F4,3,incongruent,C,1,0.412155818
063F4,3,congruent,C,1,0.375799776
0FC73,1,incongruent,C,0,0.022721256
0FC73,1,incongruent,C,1,1.040896526
0FC73,1,incongruent,C,1,0.386931932
0FC73,1,congruent,C,0,0.357834415
0FC73,1,incongruent,C,1,0.55471084
0FC73,1,congruent,C,1,0.015145098
0FC73,1,incongruent,C,1,0.410344262
0FC73,1,congruent,C,1,0.341413808
0FC73,1,congruent,C,1,0.315148536
0FC73,1,congruent,C,1,0.433929188
0FC73,1,congruent,C,1,0.323721194
0FC73,1,incongruent,C,1,0.321527214
0FC73,2,congruent,C,0,0.311366404
0FC73,2,congruent,C,1,0.374320326
0FC73,2,incongruent,C,1,0.346602666
0FC73,2,incongruent,C,1,0.392972668
0FC73,2,incongruent,C,0,0.254262276
0FC73,2,incongruent,C,1,0.31847388
0FC73,2,incongruent,C,1,0.380253862
0FC73,2,congruent,C,1,0.288932816
0FC73,2,congruent,C,1,-0.015954594
0FC73,2,congruent,C,1,0.354941572
0FC73,2,congruent,C,1,0.248092884
0FC73,2,incongruent,C,1,0.297736596
0FC73,3,incongruent,C,1,0.28890782
0FC73,3,incongruent,C,0,0.247953776
0FC73,3,congruent,C,1,0.330396404
0FC73,3,congruent,C,1,0.280004346
0FC73,3,incongruent,C,1,0.328778991
0FC73,3,congruent,C,1,0.00703973
0FC73,3,congruent,C,1,0.386847856
0FC73,3,congruent,C,1,0.389785394
0FC73,3,incongruent,C,1,0.528693281
0FC73,3,incongruent,C,0,0.158493526
0FC73,3,incongruent,C,1,0.378877388
0FC73,3,congruent,C,1,0.40791368
0EF1B,1,congruent,C,1,0.964620144
0EF1B,1,incongruent,C,0,0.400371032
0EF1B,1,incongruent,C,0,0.673239927
0EF1B,1,congruent,C,1,0.041445592
0EF1B,1,incongruent,C,0,0.351404288
0EF1B,1,incongruent,C,0,0.390528198
0EF1B,1,incongruent,C,0,NaN
0EF1B,1,congruent,C,1,0.520970308
0EF1B,1,congruent,C,1,0.4417153
0EF1B,1,congruent,C,1,0.494385564
0EF1B,1,congruent,C,1,0.542330004
0EF1B,1,incongruent,C,1,0.396567838
0EF1B,2,congruent,C,1,0.626299369
0EF1B,2,incongruent,C,1,0.402356686
0EF1B,2,congruent,C,1,0.517329464
0EF1B,2,congruent,C,1,0.494348046
0EF1B,2,congruent,C,1,0.528802944
0EF1B,2,incongruent,C,1,0.510989673
0EF1B,2,incongruent,C,1,0.403594294
0EF1B,2,incongruent,C,1,0.398537202
0EF1B,2,congruent,C,1,0.556651392
0EF1B,2,congruent,C,1,0.435658758
0EF1B,2,incongruent,C,1,0.517158646
0EF1B,2,incongruent,C,1,0.382452735
0EF1B,3,incongruent,C,1,0.666327928
0EF1B,3,congruent,C,1,0.596832724
0EF1B,3,incongruent,C,1,0.45795804
0EF1B,3,congruent,C,1,0.448670072
0EF1B,3,incongruent,C,1,0.430261428
0EF1B,3,congruent,C,1,0.47618395
0EF1B,3,congruent,C,1,0.529583188
0EF1B,3,incongruent,C,1,0.411327884
0EF1B,3,incongruent,C,1,0.414070248
0EF1B,3,congruent,C,1,0.596839846
0EF1B,3,incongruent,C,1,0.319770725
0EF1B,3,congruent,C,1,0.416624712
01C84,1,congruent,C,0,NaN
01C84,1,congruent,C,1,1.202557957
01C84,1,incongruent,C,0,0.053406622
01C84,1,congruent,C,1,1.645781033
01C84,1,congruent,C,1,0.123744328
01C84,1,congruent,C,1,0.753593708
01C84,1,incongruent,C,0,0.214985298
01C84,1,congruent,C,1,0.527154768
01C84,1,incongruent,C,1,0.416726354
01C84,1,incongruent,C,1,0.475955952
01C84,1,incongruent,C,1,0.476085328
01C84,1,incongruent,C,1,0.44446845
01C84,2,incongruent,C,1,0.66216595
01C84,2,congruent,C,1,0.486480768
01C84,2,incongruent,C,1,0.62222509
01C84,2,incongruent,C,1,0.704308935
01C84,2,incongruent,C,1,0.575233973
01C84,2,congruent,C,1,0.475358148
01C84,2,congruent,C,1,0.467723966
01C84,2,incongruent,C,1,0.852108562
01C84,2,congruent,C,1,0.412045272
01C84,2,congruent,C,1,0.368131455
01C84,2,incongruent,C,0,0.269223994
01C84,2,congruent,C,1,0.50005605
01C84,3,congruent,C,1,0.363551156
01C84,3,congruent,C,1,0.520385383
01C84,3,incongruent,C,1,0.405505652
01C84,3,congruent,C,1,0.449551764
01C84,3,congruent,C,1,0.34700934
01C84,3,incongruent,C,1,0.625692842
01C84,3,incongruent,C,1,0.522958862
01C84,3,incongruent,C,1,0.72909831
01C84,3,incongruent,C,1,0.519250908
01C84,3,congruent,C,1,0.405129395
01C84,3,incongruent,C,1,0.520005268
01C84,3,congruent,C,1,0.430602368