condsFile,flankerDirc,targetDirc,corrAns,displays,blocks.thisRepN,blocks.thisTrialN,blocks.thisN,blocks.thisIndex,trials.thisRepN,trials.thisTrialN,trials.thisN,trials.thisIndex,kb.keys,kb.corr,kb.rt,Subject ID,group,age,gender,date,expName,
block2_params.xlsx,0,1,m,incongruent,0,0,0,1,0,0,0,9,m,1,1.282774370003608,17D96,B,22,F,Mar_03_1230,Flanker Task,
block2_params.xlsx,0,0,z,congruent,0,0,0,1,0,1,1,4,z,1,0.695439378003357,17D96,B,22,F,Mar_03_1230,Flanker Task,
block2_params.xlsx,0,1,m,incongruent,0,0,0,1,0,2,2,1,m,1,0.4401193429948762,17D96,B,22,F,Mar_03_1230,Flanker Task,
block2_params.xlsx,1,1,m,congruent,0,0,0,1,0,3,3,7,m,1,0.43369485400035046,17D96,B,22,F,Mar_03_1230,Flanker Task,
block2_params.xlsx,0,0,z,congruent,0,0,0,1,0,4,4,8,z,1,0.32324551200144924,17D96,B,22,F,Mar_03_1230,Flanker Task,
block2_params.xlsx,1,0,z,incongruent,0,0,0,1,0,5,5,6,z,1,0.48133968000183813,17D96,B,22,F,Mar_03_1230,Flanker Task,
block2_params.xlsx,1,0,z,incongruent,0,0,0,1,0,6,6,10,z,1,0.5424033059971407,17D96,B,22,F,Mar_03_1230,Flanker Task,
block2_params.xlsx,1,1,m,congruent,0,0,0,1,0,7,7,3,m,1,0.38779693499964196,17D96,B,22,F,Mar_03_1230,Flanker Task,
block2_params.xlsx,0,1,m,incongruent,0,0,0,1,0,8,8,5,m,1,0.5735534050036222,17D96,B,22,F,Mar_03_1230,Flanker Task,
block2_params.xlsx,1,1,m,congruent,0,0,0,1,0,9,9,11,m,1,0.32374325599812437,17D96,B,22,F,Mar_03_1230,Flanker Task,
block2_params.xlsx,0,0,z,congruent,0,0,0,1,0,10,10,0,z,1,0.45996112399734557,17D96,B,22,F,Mar_03_1230,Flanker Task,
block2_params.xlsx,1,0,z,incongruent,0,0,0,1,0,11,11,2,z,1,0.5475981900090119,17D96,B,22,F,Mar_03_1230,Flanker Task,
block3_params.xlsx,1,0,z,incongruent,0,1,1,2,0,0,0,2,z,1,0.46624278200033586,17D96,B,22,F,Mar_03_1230,Flanker Task,
block3_params.xlsx,0,1,m,incongruent,0,1,1,2,0,1,1,1,m,1,0.3465620739880251,17D96,B,22,F,Mar_03_1230,Flanker Task,
block3_params.xlsx,1,1,m,congruent,0,1,1,2,0,2,2,3,m,1,0.3761744479998015,17D96,B,22,F,Mar_03_1230,Flanker Task,
block3_params.xlsx,1,0,z,incongruent,0,1,1,2,0,3,3,10,z,1,0.34512912899663206,17D96,B,22,F,Mar_03_1230,Flanker Task,
block3_params.xlsx,0,0,z,congruent,0,1,1,2,0,4,4,4,z,1,0.3854510730016045,17D96,B,22,F,Mar_03_1230,Flanker Task,
block3_params.xlsx,0,0,z,congruent,0,1,1,2,0,5,5,8,z,1,0.4614604119997239,17D96,B,22,F,Mar_03_1230,Flanker Task,
block3_params.xlsx,0,0,z,congruent,0,1,1,2,0,6,6,0,z,1,0.3346667849982623,17D96,B,22,F,Mar_03_1230,Flanker Task,
block3_params.xlsx,1,1,m,congruent,0,1,1,2,0,7,7,11,m,1,0.40819241300050635,17D96,B,22,F,Mar_03_1230,Flanker Task,
block3_params.xlsx,1,0,z,incongruent,0,1,1,2,0,8,8,6,z,1,0.4359314350003842,17D96,B,22,F,Mar_03_1230,Flanker Task,
block3_params.xlsx,0,1,m,incongruent,0,1,1,2,0,9,9,5,m,1,0.496134687011363,17D96,B,22,F,Mar_03_1230,Flanker Task,
block3_params.xlsx,1,1,m,congruent,0,1,1,2,0,10,10,7,m,1,0.4526857950113481,17D96,B,22,F,Mar_03_1230,Flanker Task,
block3_params.xlsx,0,1,m,incongruent,0,1,1,2,0,11,11,9,m,1,0.3799953700072365,17D96,B,22,F,Mar_03_1230,Flanker Task,
block1_params.xlsx,0,0,z,congruent,0,2,2,0,0,0,0,4,z,1,0.3431943100003991,17D96,B,22,F,Mar_03_1230,Flanker Task,
block1_params.xlsx,0,0,z,congruent,0,2,2,0,0,1,1,8,z,1,0.5000201649963856,17D96,B,22,F,Mar_03_1230,Flanker Task,
block1_params.xlsx,0,1,m,incongruent,0,2,2,0,0,2,2,9,m,1,0.3254344479937572,17D96,B,22,F,Mar_03_1230,Flanker Task,
block1_params.xlsx,1,1,m,congruent,0,2,2,0,0,3,3,7,m,1,0.3699194689979777,17D96,B,22,F,Mar_03_1230,Flanker Task,
block1_params.xlsx,1,0,z,incongruent,0,2,2,0,0,4,4,2,z,1,0.4834151700051734,17D96,B,22,F,Mar_03_1230,Flanker Task,
block1_params.xlsx,1,0,z,incongruent,0,2,2,0,0,5,5,6,z,1,0.4868488069914747,17D96,B,22,F,Mar_03_1230,Flanker Task,
block1_params.xlsx,1,1,m,congruent,0,2,2,0,0,6,6,3,m,1,0.37351276200206485,17D96,B,22,F,Mar_03_1230,Flanker Task,
block1_params.xlsx,1,1,m,congruent,0,2,2,0,0,7,7,11,m,1,0.40217735699843615,17D96,B,22,F,Mar_03_1230,Flanker Task,
block1_params.xlsx,0,1,m,incongruent,0,2,2,0,0,8,8,5,m,1,0.5412174119992414,17D96,B,22,F,Mar_03_1230,Flanker Task,
block1_params.xlsx,0,0,z,congruent,0,2,2,0,0,9,9,0,z,1,0.44374581800366286,17D96,B,22,F,Mar_03_1230,Flanker Task,
block1_params.xlsx,1,0,z,incongruent,0,2,2,0,0,10,10,10,z,1,0.5600772780016996,17D96,B,22,F,Mar_03_1230,Flanker Task,
block1_params.xlsx,0,1,m,incongruent,0,2,2,0,0,11,11,1,m,1,0.45993515600275714,17D96,B,22,F,Mar_03_1230,Flanker Task,
